Folder: Scanning-Microscope/data

Note: README.md
# Scanning-Microscope
Code for running the scanning running microscope through the 3D printer controller and lightfield software

File: MoS2 sonication series DMF UV-vis.csv
Wavelength (nm),14k,11k,8k,5k,3k
190,-1.77E-02,4.91E-03,5.82E-04,-1.02E-02,2.05E-02
195,-2.96E-02,1.50E-02,3.61E-03,7.56E-03,-5.64E-03
200,-2.59E-02,8.61E-03,5.49E-03,1.86E-02,-2.68E-03
205,4.91E-02,1.02E-02,2.98E-02,4.19E-02,0.0344396
210,2.66E-02,1.09E-02,8.15E-03,2.32E-02,2.44E-02
215,1.09E-02,-1.09E-03,6.97E-03,0.0127204,2.19E-02
220,4.89E-03,7.44E-04,0.002887592,6.71E-03,1.65E-02
225,1.45E-03,2.09E-03,5.00E-03,7.57E-03,0.0135544
230,-7.43E-04,-1.84E-03,4.42E-03,9.73E-03,1.37E-02
235,4.20E-04,-2.29E-03,5.51E-03,1.13E-02,1.49E-02
240,-1.33E-03,-1.47E-03,6.89E-03,8.32E-03,1.55E-02
245,-3.36E-03,5.84E-04,3.44E-03,4.10E-03,7.08E-03
250,-2.56E-03,1.02E-03,2.76E-03,3.39E-03,8.89E-03
255,-3.91E-03,-2.34E-03,-2.13E-04,-6.00E-05,5.90E-03
260,9.79E-03,8.78E-03,9.98E-03,1.06E-02,1.38E-02
265,0.278379,0.261831,0.245285,0.256183,0.192565
270,0.443993,0.409289,0.376177,0.39838,0.282748
275,0.482242,0.438663,0.404781,0.431175,0.302941
280,0.475082,0.429976,0.397114,0.42885,0.301258
285,0.478538,0.428516,0.39789,0.432531,0.305259
290,0.475765,0.424027,0.395247,0.43346,0.307121
295,0.479132,0.424284,0.395717,0.437926,0.309052
300,0.484669,0.428193,0.399281,0.445774,0.313539
305,0.488959,0.429162,0.404454,0.452835,0.318415
310,0.491654,0.432359,0.407547,0.460327,0.322035
315,0.490873,0.4317,0.407372,0.46317,0.323461
320,0.490841,0.433118,0.409465,0.469521,0.327267
325,0.491707,0.432177,0.409594,0.473854,0.329293
330,0.487853,0.428509,0.408731,0.474372,0.329715
335,0.4823,0.425513,0.404795,0.473868,0.329669
340,0.479953,0.421076,0.403049,0.476142,0.330864
345,0.477229,0.419233,0.402626,0.478001,0.33168
350,0.482963,0.424844,0.406084,0.481927,0.335885
355,0.49291,0.433307,0.412391,0.489424,0.339914
360,0.50641,0.443384,0.425702,0.499122,0.343825
365,0.521105,0.459018,0.437995,0.514962,0.349416
370,0.537209,0.478504,0.45474,0.525987,0.356304
375,0.553756,0.49516,0.47209,0.539407,0.363308
380,0.57647,0.514385,0.489912,0.55783,0.373491
385,0.581196,0.522043,0.499314,0.564027,0.376507
390,0.581903,0.524479,0.502911,0.564562,0.376995
395,0.587642,0.532936,0.512067,0.573565,0.381494
400,0.588577,0.535075,0.516643,0.576489,0.383545
405,0.610831,0.555271,0.535404,0.598895,0.39769
410,0.618003,0.56278,0.54527,0.612049,0.404663
415,0.616297,0.562869,0.545452,0.615637,0.407094
420,0.628962,0.572372,0.556433,0.629367,0.414794
425,0.629698,0.573689,0.561994,0.635302,0.420995
430,0.645863,0.590638,0.579978,0.655274,0.43203
435,0.638298,0.58604,0.577692,0.652783,0.430596
440,0.643128,0.592348,0.588576,0.662364,0.436476
445,0.638863,0.589715,0.589832,0.664304,0.437875
450,0.639239,0.594851,0.598792,0.675217,0.444771
455,0.630615,0.588689,0.602227,0.68026,0.449833
460,0.609896,0.574924,0.595756,0.678029,0.450008
465,0.591016,0.562013,0.591316,0.6793632,0.45315
470,0.559978,0.537256,0.577224,0.668185,0.450163
475,0.533235,0.517991,0.569552,0.666923,0.452637
480,0.498537,0.490562,0.552036,0.656472,0.449583
485,0.46622,0.463984,0.535839,0.651005,0.448337
490,0.432261,0.435925,0.516894,0.63861,0.444888
495,0.402039,0.407856,0.498016,0.629515,0.444087
500,0.3744,0.382743,0.480253,0.624523,0.443145
505,0.3454437,0.356369,0.455607,0.608035,0.437448
510,0.325133,0.335609,0.438206,0.599751,0.436716
515,0.3064568,0.316447,0.42047,0.590225,0.433047
520,0.289326,0.299783,0.40282,0.580399,0.430512
525,0.275542,0.284386,0.387727,0.570267,0.427657
530,0.262833,0.27085,0.371783,0.55997,0.424525
535,0.250957,0.258895,0.358255,0.548884,0.420441
540,0.241482,0.248351,0.345482,0.538475,0.41725
545,0.233793,0.239329,0.334457,0.530673,0.414616
550,0.226332,0.231365,0.323958,0.518957,0.409985
555,0.22078,0.224697,0.315098,0.512074,0.407954
560,0.216478,0.219503,0.308372,0.50613,0.406871
565,0.212273,0.214435,0.30007,0.497712,0.403525
570,0.210799,0.211191,0.293515,0.497508,0.406994
575,0.207613,0.206383,0.284663,0.486251,0.402017
580,0.206262,0.203929,0.279024,0.474942,0.395026
585,0.21127,0.208178,0.282633,0.482893,0.401818
590,0.210881,0.206447,0.278934,0.465483,0.386947
595,0.216306,0.210872,0.282574,0.466512,0.385552
600,0.223136,0.217399,0.289872,0.474958,0.388614
605,0.2293,0.224106,0.299645,0.487466,0.395277
610,0.225426,0.221639,0.299463,0.485762,0.393052
615,0.216236,0.21421,0.294447,0.486556,0.395784
620,0.203639,0.203242,0.285758,0.482808,0.397448
625,0.189456,0.189878,0.272786,0.475061,0.397117
630,0.177673,0.179069,0.261812,0.469677,0.399296
635,0.166248,0.168116,0.249507,0.457254,0.395989
640,0.158387,0.160148,0.238968,0.446334,0.392182
645,0.154028,0.155549,0.232642,0.437664,0.389369
650,0.153476,0.154643,0.229625,0.431649,0.386311
655,0.157522,0.158368,0.234385,0.435553,0.385729
660,0.161932,0.16327,0.240143,0.439668,0.385686
665,0.162666,0.166522,0.247243,0.449229,0.388258
670,0.151825,0.16089,0.24906,0.46045,0.394307
675,0.129512,0.143223,0.238494,0.464518,0.402854
680,0.103149,0.117636,0.212281,0.455186,0.40772
685,8.13E-02,9.43E-02,0.183842,0.4369,0.410342
690,6.51E-02,7.69E-02,0.159561,0.412293,0.407932
695,5.47E-02,6.51E-02,0.141858,0.389412,0.404482
700,4.76E-02,5.71E-02,0.128502,0.370364,0.402435
705,4.20E-02,5.11E-02,0.118841,0.353534,0.399386
710,3.81E-02,4.65E-02,0.110867,0.338593,0.396657
715,3.50E-02,4.28E-02,0.103991,0.3248,0.393593
720,3.32E-02,4.03E-02,9.92E-02,0.313742,0.391519
725,3.18E-02,0.0382514,9.47E-02,0.30325,0.38928
730,3.00E-02,3.63E-02,9.09E-02,0.293472,0.386624
735,2.90E-02,3.45E-02,8.74E-02,0.284248,0.384158
740,2.83E-02,3.34E-02,8.50E-02,0.275341,0.381835
745,2.74E-02,3.21E-02,8.26E-02,0.267245,0.37955
750,2.68E-02,3.10E-02,8.03E-02,0.260577,0.378185
755,2.56E-02,3.00E-02,0.0779647,0.252672,0.375456
760,0.0254546,2.93E-02,7.63E-02,0.24739,0.374788
765,0.0249128,2.84E-02,0.0744357,0.241377,0.372684
770,2.48E-02,2.75E-02,7.30E-02,0.234525,0.370545
775,2.42E-02,2.71E-02,7.25E-02,0.228721,0.368043
780,2.40E-02,2.65E-02,7.08E-02,0.223991,0.367517
785,2.37E-02,2.58E-02,6.95E-02,0.21851,0.365407
790,2.31E-02,2.55E-02,6.87E-02,0.213284,0.364092
795,2.30E-02,2.48E-02,6.69E-02,0.209081,0.362174
800,2.29E-02,2.45E-02,6.68E-02,0.203861,0.360728
805,2.24E-02,2.37E-02,6.53E-02,0.199275,0.358906
810,2.23E-02,2.37E-02,6.51E-02,0.195818,0.358055
815,2.20E-02,0.0231938,6.39E-02,0.191608,0.356362
820,2.18E-02,2.31E-02,6.32E-02,0.187485,0.354278
825,2.19E-02,2.31E-02,6.31E-02,0.183913,0.353264
830,2.15E-02,2.23E-02,6.22E-02,0.180008,0.352045
835,2.11E-02,2.19E-02,6.12E-02,0.176156,0.350764
840,2.05E-02,2.13E-02,6.02E-02,0.172084,0.347762
845,2.03E-02,2.16E-02,6.01E-02,0.168619,0.347394
850,2.00E-02,2.14E-02,5.90E-02,0.165068,0.345949
855,1.92E-02,2.05E-02,0.0577439,0.162326,0.344726
860,1.96E-02,2.03E-02,5.79E-02,0.159082,0.342776
865,1.87E-02,1.97E-02,5.71E-02,0.155627,0.341497
870,1.88E-02,2.01E-02,5.69E-02,0.152601,0.33955
875,1.84E-02,2.03E-02,5.69E-02,0.149765,0.338636
880,1.77E-02,1.92E-02,5.46E-02,0.146142,0.335419
885,0.01774886,1.85E-02,5.43E-02,0.143192,0.332612
890,0.0172925,1.87E-02,5.34E-02,0.140002,0.330726
895,1.64E-02,1.84E-02,5.25E-02,0.136633,0.328564
900,1.70E-02,1.90E-02,0.0526344,0.135868,0.328635
905,1.61E-02,1.82E-02,0.05208324,0.131879,0.326873
910,1.66E-02,1.80E-02,5.08E-02,0.129701,0.324169
915,1.48E-02,1.79E-02,5.14E-02,0.127197,0.323306
920,1.73E-02,1.83E-02,5.16E-02,0.126202,0.323579
925,1.42E-02,1.73E-02,4.90E-02,0.123109,0.321416
930,1.68E-02,1.81E-02,5.21E-02,0.122732,0.32125
935,1.41E-02,1.70E-02,4.80E-02,0.119896,0.318683
940,0.016651,1.77E-02,5.06E-02,0.118213,0.318952
945,1.40E-02,1.76E-02,4.92E-02,0.114759,0.318515
950,1.61E-02,1.77E-02,4.75E-02,0.115045,0.31459
955,1.59E-02,1.88E-02,4.91E-02,0.112341,0.312257
960,1.50E-02,1.98E-02,4.91E-02,0.109849,0.309724
965,1.48E-02,1.74E-02,4.77E-02,0.106868,0.308317
970,1.49E-02,1.54E-02,4.56E-02,0.103448,0.303905
975,1.48E-02,1.86E-02,4.84E-02,0.104981,0.304839
980,1.43E-02,1.92E-02,4.71E-02,0.103204,0.298041
985,1.46E-02,1.91E-02,4.69E-02,0.103525,0.299156
990,1.32E-02,1.50E-02,4.47E-02,9.58E-02,0.298098
995,0.012811,0.0152889,4.10E-02,9.63E-02,0.293238
1000,1.14E-02,1.99E-02,4.35E-02,9.63E-02,0.290787
1005,1.53E-02,2.08E-02,4.57E-02,9.50E-02,0.292453
1010,1.33E-02,1.78E-02,4.57E-02,9.12E-02,0.29113
1015,1.55E-02,1.80E-02,4.74E-02,9.53E-02,0.293881
1020,0.0154044,1.51E-02,4.43E-02,9.10E-02,0.28927
1025,1.48E-02,1.72E-02,4.32E-02,9.08E-02,0.295491
1030,9.89E-03,1.50E-02,4.34E-02,8.78E-02,0.288645
1035,1.14E-02,1.71E-02,4.68E-02,0.0886221,0.291111
1040,1.41E-02,1.98E-02,4.19E-02,0.0850431,0.296253
1045,8.21E-03,0.0173367,3.95E-02,8.76E-02,0.287386
1050,6.12E-03,1.16E-02,4.34E-02,8.23E-02,0.29077
1055,1.66E-02,2.26E-02,4.76E-02,8.85E-02,0.281181
1060,1.57E-02,1.96E-02,4.26E-02,8.63E-02,0.294419
1065,1.50E-02,1.30E-02,3.66E-02,7.63E-02,0.279107
1070,1.79E-02,2.18E-02,4.34E-02,0.0848573,0.275479
1075,2.13E-02,2.32E-02,3.85E-02,8.54E-02,0.293179
1080,1.32E-02,1.93E-02,4.72E-02,8.31E-02,0.271209
1085,0.0138831,8.21E-03,3.34E-02,8.15E-02,0.282356
1090,1.48E-02,2.29E-02,3.02E-02,8.13E-02,0.278999
1095,9.95E-03,-1.32E-03,3.82E-02,7.25E-02,0.273514
1100,1.21E-02,1.32E-02,0.0363488,7.58E-02,0.267915